U1_final,U1_nom,U2_final,U2_nom,U3_final,U3_nom,U4_final,U4_nom,cbf_slack_0,control_state,des_acc_x,des_acc_y,des_acc_z,des_att_phi_deg,des_att_psi_deg,des_att_theta_deg,des_pos_x,des_pos_y,des_pos_z,des_vel_x,des_vel_y,des_vel_z,err_att_phi_deg,err_att_psi_deg,err_att_theta_deg,err_pos_x,err_pos_y,err_pos_z,err_rate_x_deg_s,err_rate_y_deg_s,err_rate_z_deg_s,err_vel_x,err_vel_y,err_vel_z,omega_sq_1,omega_sq_2,omega_sq_3,omega_sq_4,orient_phi_rad,orient_psi_rad,orient_theta_rad,pos_x,pos_y,pos_z,rate_x_rad_s,rate_y_rad_s,rate_z_rad_s,timestamp,vel_x,vel_y,vel_z,virt_inp_Uex,virt_inp_Uey
nan,15.89114295058666,nan,1.6578592204530724e-07,nan,6.672804390131909e-08,nan,1.906029354009261e-07,nan,TAKEOFF,0.0,0.0,0.0,1.0084364816853575e-06,180.0,3.613797451676887e-07,20.0,0.0,3.0,0.0,0.0,0.0,-2.1387205126429592e-05,-0.00014398803618777568,-7.220858910029605e-06,1.2969223917025374e-08,-3.46114011040823e-08,-2.915802999359257,-5.58807898635717e-05,-1.6705381940987213e-05,4.473100893087661e-05,nan,nan,nan,464730.11606677435,464730.1590843733,464730.8258261493,464730.8428527498,-3.556766103529695e-07,3.141590140524478,-1.1972049639879136e-07,nan,nan,nan,-9.75303771734399e-07,-2.9156391767342795e-07,7.807033835827854e-07,1.024,1.5991638024662284e-07,-4.4711814260422146e-07,0.18300339867169002,nan,nan
nan,15.89114295058666,nan,1.6578592204530724e-07,nan,6.672804390131909e-08,nan,1.906029354009261e-07,nan,TAKEOFF,0.0,0.0,0.0,1.0084364816853575e-06,180.0,3.613797451676887e-07,20.0,0.0,3.0,0.0,0.0,0.0,-2.1387205126429592e-05,-0.00014398803618777568,-7.220858910029605e-06,1.2969223917025374e-08,-3.46114011040823e-08,-2.915802999359257,-5.58807898635717e-05,-1.6705381940987213e-05,4.473100893087661e-05,nan,nan,nan,464730.11606677435,464730.1590843733,464730.8258261493,464730.8428527498,-3.556766103529695e-07,3.141590140524478,-1.1972049639879136e-07,nan,nan,nan,-9.75303771734399e-07,-2.9156391767342795e-07,7.807033835827854e-07,1.024,1.5991638024662284e-07,-4.4711814260422146e-07,0.18300339867169002,nan,nan
15.702322772415027,15.702322772415027,8.495530210871637e-07,8.495530210871637e-07,5.081088368237195e-07,5.081088368237195e-07,4.5307023796014896e-08,4.5307023796014896e-08,nan,TAKEOFF,0.0,0.0,0.0,1.0886946786386449e-05,180.0,4.15615958112699e-06,20.0,0.0,3.0,0.0,0.0,0.0,-0.00010936655794683725,-0.00011822296750207354,-4.5494139200348576e-05,3.391335212654667e-07,-9.36439569704344e-07,-2.769571841586621,-0.0002864704136213541,-0.00013195017962319775,5.263098365669034e-05,1.711852551644137e-06,-4.457702416040095e-06,0.4172765588930646,459208.1995357206,459208.65687353315,459208.5938899428,459208.5937660198,-1.7187934608336201e-06,3.1415905902097587,-7.214838504777286e-07,20.00000033913352,-9.36439569704344e-07,0.2304281584133793,-4.999851927242642e-06,-2.3029650830227317e-06,9.185839533725713e-07,1.504,1.711852551644137e-06,-4.457702416040095e-06,0.4172765588930646,-7.253866892897294e-08,1.9001306691185815e-07
15.508850946362582,15.508850946362582,4.7596710177557276e-07,4.7596710177557276e-07,3.2228499605455645e-07,3.2228499605455645e-07,6.328649904867293e-09,6.328649904867293e-09,nan,TAKEOFF,0.0,0.0,0.0,4.412138192095091e-05,180.0,1.8616699418592916e-05,20.0,0.0,3.0,0.0,0.0,0.0,-0.00021951736020596536,-9.308651074261387e-05,-9.805341643409896e-05,2.4166214238618977e-06,-5.97216663496274e-06,-2.5133421458644136,-8.137468227790782e-05,-4.909522173291175e-05,4.563803492148219e-05,7.069487774171055e-06,-1.6619972114101064e-05,0.598803269767079,453550.3505854735,453550.62705186283,453550.50518514746,453550.51872193447,-3.061237315829979e-06,3.1415910289236915,-1.386432258895584e-06,20.000002416621424,-5.97216663496274e-06,0.48665785413558643,-1.4202561335137708e-06,-8.568732662359861e-07,7.96533973520016e-07,2.001,7.069487774171055e-06,-1.6619972114101064e-05,0.598803269767079,-3.249227007084583e-07,7.700633850504177e-07
15.327804906299676,15.327804906299676,1.1568481964929374e-07,1.1568481964929374e-07,1.7645686825476668e-07,1.7645686825476668e-07,-9.122826377257532e-09,-9.122826377257532e-09,nan,TAKEOFF,0.0,0.0,0.0,8.931494427828048e-05,180.0,3.973365365476482e-05,20.0,0.0,3.0,0.0,0.0,0.0,-0.00024318345138157869,-7.191432011090186e-05,-0.00011903016188655424,7.579711169825032e-06,-1.773568714085904e-05,-2.182764090635345,7.513635896432096e-05,5.791520229760036e-06,3.726204942048198e-05,1.3547114453141455e-05,-3.0068027212463024e-05,0.7187287394665619,448255.8372584814,448255.95045809384,448255.83771789784,448255.88330027304,-2.6855120640808367e-06,3.141591398448128,-1.3839851539795123e-06,20.00000757971117,-1.773568714085904e-05,0.8172359093646548,1.3113768518877575e-06,1.0108109670517111e-07,6.503454484282555e-07,2.5,1.3547114453141455e-05,-3.0068027212463024e-05,0.7187287394665619,-6.934830801218259e-07,1.5588398488906337e-06
15.164561130938596,15.164561130938596,-3.897736000328589e-08,-3.897736000328589e-08,2.055136165447568e-07,2.055136165447568e-07,2.067116023521121e-09,2.067116023521121e-09,nan,TAKEOFF,0.0,0.0,0.0,0.00012927932592639383,180.0,6.388386010032801e-05,20.0,0.0,3.0,0.0,0.0,0.0,-0.0002028405908796324,-5.595981874746701e-05,-0.00014312419397912666,1.5869755070951896e-05,-3.5083937622430675e-05,-1.804382484617351,0.00011707237316485913,8.992000711552333e-06,2.7684238654589415e-05,1.9452032115520803e-05,-3.7731427428724754e-05,0.7826918150202158,443481.8301001008,443481.91134841123,443481.82644078817,443481.9301207315,-1.2838862753659258e-06,3.141591676906707,-1.3830047265646456e-06,20.00001586975507,-3.5083937622430675e-05,1.195617515382649,2.043298374850246e-06,1.569400187582611e-07,4.831811154304705e-07,3.001,1.9452032115520803e-05,-3.7731427428724754e-05,0.7826918150202158,-1.1149836976310893e-06,2.256349892172526e-06
15.02574659856575,15.02574659856575,-4.330792055528697e-08,-4.330792055528697e-08,1.380869199935459e-07,1.380869199935459e-07,1.0203984544380114e-08,1.0203984544380114e-08,nan,TAKEOFF,0.0,0.0,0.0,0.00015718468084890822,180.0,8.9094831937674e-05,20.0,0.0,3.0,0.0,0.0,0.0,-0.0001780986871223129,-4.503336526520508e-05,-0.00015590359296942848,2.6804071286079534e-05,-5.433868728547427e-05,-1.40921461259382,0.00010644044077829997,3.5910241767924115e-05,2.1057151194628576e-05,2.419944141057001e-05,-3.881619896658807e-05,0.7967070393357075,439422.25302935793,439422.3013186574,439422.2764924267,439422.35245850944,-3.650182692536604e-07,3.141591867609296,-1.1660328491821995e-06,20.000026804071286,-5.433868728547427e-05,1.59078538740618,1.8577361488553701e-06,6.267519540374653e-07,3.6751661943652596e-07,3.5,2.419944141057001e-05,-3.881619896658807e-05,0.7967070393357075,-1.554998163816932e-06,2.743390214506483e-06
14.911781624538108,14.911781624538108,-2.4053616354457343e-07,-2.4053616354457343e-07,5.133584651508247e-08,5.133584651508247e-08,-2.098695162215691e-09,-2.098695162215691e-09,nan,TAKEOFF,0.0,0.0,0.0,0.00017316613083869534,180.0,0.00011303948868406335,20.0,0.0,3.0,0.0,0.0,0.0,-0.00011890991760226008,-3.528467110515577e-05,-0.00015672235544816714,3.976296502372634e-05,-7.307631042111019e-05,-1.0154318310535073,0.0001559689433913144,6.228408472026503e-05,1.7922800729786522e-05,2.7165034602383504e-05,-3.492464008450576e-05,0.7690735693931972,436106.9094991795,436106.8666584459,436106.83573247824,436106.92608962604,9.551114721613154e-07,3.141592038694296,-7.591338796853104e-07,20.00003984448243,-7.318099938239314e-05,1.986874841708301,2.71981130064725e-06,1.094400557197032e-06,3.1268710301825494e-07,4.001,2.717617481299811e-05,-3.4882135981163527e-05,0.7687994628487486,-1.9729112622974866e-06,3.0223191360699224e-06
14.82630437377884,14.82630437377884,-2.5074490201569094e-07,-2.5074490201569094e-07,-4.694966377691697e-08,-4.694966377691697e-08,-9.598145562542707e-09,-9.598145562542707e-09,nan,TAKEOFF,0.0,0.0,0.0,0.000171323777327913,180.0,0.00013224818283183202,20.0,0.0,3.0,0.0,0.0,0.0,-5.025682112032443e-05,-2.7122889029985292e-05,-0.0001399001317425438,5.354582660288543e-05,-8.831138610636562e-05,-0.6455922120716662,0.00012581964799618579,8.424421285650949e-05,1.4934326371742792e-05,2.7555441223510263e-05,-2.5289375426388133e-05,0.7083391724359474,433598.2177250276,433598.1285037722,433598.11445822346,433598.161750463,2.113017001190208e-06,3.141592180206077,-1.3355170268631467e-07,20.000053600939975,-8.836198895537044e-05,2.355824614523705,2.2007201121289557e-06,1.4693962587397463e-06,2.6086148700645176e-07,4.5,2.7555441223510263e-05,-2.5289375426388133e-05,0.7083391724359474,-2.3081662201825386e-06,2.9901640013212393e-06
14.767033920035422,14.767033920035422,-1.4972483097546812e-07,-1.4972483097546812e-07,-6.587415423049111e-08,-6.587415423049111e-08,-4.323583240370883e-09,-4.323583240370883e-09,nan,TAKEOFF,0.0,0.0,0.0,0.00015184158622096738,180.0,0.00014278227551158887,20.0,0.0,3.0,0.0,0.0,0.0,1.3997190438129264e-05,-2.0693311866430395e-05,-0.00010986988147519933,6.677624349649136e-05,-9.767211692973195e-05,-0.31041808785590064,5.312617101734976e-05,7.499079055368599e-05,1.0965084282487759e-05,2.460599273599436e-05,-1.1504740035405408e-05,0.6235567483688631,431856.38425010984,431856.313663425,431856.3274961502,431856.33880699443,2.8944326801807583e-06,3.141592292423368,5.744296406487439e-07,20.000066776243496,-9.767211692973195e-05,2.6895819121440994,9.272266032303389e-07,1.308836203835282e-06,1.9137682348809138e-07,5.001,2.460599273599436e-05,-1.1504740035405408e-05,0.6235567483688631,-2.492020821155566e-06,2.650135621003633e-06
14.73249661796858,14.73249661796858,-5.625017171915398e-08,-5.625017171915398e-08,-9.570561543417688e-08,-9.570561543417688e-08,8.77299594517347e-09,8.77299594517347e-09,nan,TAKEOFF,0.0,0.0,0.0,0.00011990722297238833,180.0,0.00014373593601367933,20.0,0.0,3.0,0.0,0.0,0.0,5.678074255450421e-05,-1.608770556338272e-05,-7.608296286913944e-05,7.777836828637419e-05,-9.967537678271901e-05,-0.02228048167315233,-5.742876145845293e-06,6.714840812240748e-05,6.782451635483453e-06,1.883060995788205e-05,3.4368496037461152e-06,0.5228546581122611,430846.3247645061,430846.26451092516,430846.33964090544,430846.31377526606,3.0836848995931824e-06,3.1415923729247965,1.1819389806891363e-06,20.000077778368286,-9.967537678271901e-05,2.9777195183268477,-1.0184764124200096e-07,1.1718509188296415e-06,1.1843121444306338e-07,5.502,1.8816597292766083e-05,3.466198702860613e-06,0.5226432351064899,-2.508665336866472e-06,2.092775837789631e-06
14.720269745562454,14.720269745562454,-2.937464417158883e-09,-2.937464417158883e-09,-1.1487307372518301e-07,-1.1487307372518301e-07,-1.95589388656423e-09,-1.95589388656423e-09,nan,TAKEOFF,0.0,0.0,0.0,8.117692435570097e-05,180.0,0.00013462981305571766,20.0,0.0,3.0,0.0,0.0,0.0,8.327888157932385e-05,-1.2608731140598709e-05,-3.634528328248001e-05,8.522553833500979e-05,-9.444278756532668e-05,0.21121915854523632,-4.0459845682202557e-05,5.314656478592004e-05,6.584127030953606e-06,1.0773805724169033e-05,1.7183956516551177e-05,0.414596553666519,430488.7700533791,430488.71789232764,430488.7624257861,430488.71122007613,2.870295287587015e-06,3.14159243352592,1.7153886483173926e-06,20.000085225538335,-9.444278756532668e-05,3.2112191585452363,-7.061575220032459e-07,9.2758254163878e-07,1.1491469505969903e-07,6.001,1.0773805724169033e-05,1.7183956516551177e-05,0.414596553666519,-2.349733509162201e-06,1.4168046066488847e-06
14.726660802388425,14.726660802388425,8.189278283157998e-08,8.189278283157998e-08,-1.2510701712596075e-07,-1.2510701712596075e-07,-4.065171789093051e-09,-4.065171789093051e-09,nan,TAKEOFF,0.0,0.0,0.0,4.07011330217714e-05,180.0,0.00011599598246691921,20.0,0.0,3.0,0.0,0.0,0.0,9.315183502115957e-05,-9.60961947038145e-06,4.535940905318489e-06,8.823591723938762e-05,-8.301525047336068e-05,0.3900526103975128,-7.946147017663298e-05,3.5821750247980015e-05,5.386272738070925e-06,1.1607434556958216e-06,2.8222787634757717e-05,0.3055863937552798,430675.6682618334,430675.6354904658,430675.67691772257,430675.59711347276,2.3361750059158963e-06,3.1415924858702935,2.1036789166070546e-06,20.000088240355897,-8.290217325471357e-05,3.3912727907402602,-1.3868642830575258e-06,6.252074856543465e-07,9.400819368974777e-08,6.5,1.0790108377739459e-06,2.829718297231326e-05,0.30472033783407826,-2.024511813131461e-06,7.103687805220403e-07
14.748271509605553,14.748271509605553,1.4766521946111202e-07,1.4766521946111202e-07,-1.0849409110058212e-07,-1.0849409110058212e-07,-4.555702010711567e-09,-4.555702010711567e-09,nan,TAKEOFF,0.0,0.0,0.0,3.02039173923841e-06,180.0,8.875421701496406e-05,20.0,0.0,3.0,0.0,0.0,0.0,8.591663479295869e-05,-7.182482037083185e-06,4.3994419681179416e-05,8.619343804738833e-05,-6.684638308636014e-05,0.5166036236112324,-0.00010123429090431652,1.1412575076258559e-05,4.266438349922752e-06,-9.329959547153707e-06,3.546973295685062e-05,0.1999654911001526,431307.6532061616,431307.646313579,431307.6784732219,431307.58773907187,1.552243939920394e-06,3.141592528231833,2.316900787881471e-06,20.000086193438047,-6.684638308636014e-05,3.5166036236112324,-1.7847039361638589e-06,1.9258988875528668e-07,7.405201891444309e-08,7.0,-9.372026014606186e-06,3.548984167642104e-05,0.1995599531997836,-1.5490533119400743e-06,5.271578054974843e-08
14.781350423749263,14.781350423749263,2.1613194461201413e-07,2.1613194461201413e-07,-5.295787061204252e-08,-5.295787061204252e-08,-2.482947320990092e-09,-2.482947320990092e-09,nan,TAKEOFF,0.0,0.0,0.0,-2.718777598474856e-05,180.0,5.535049095454317e-05,20.0,0.0,3.0,0.0,0.0,0.0,6.189371678050134e-05,-5.335913208341976e-06,7.607241979416926e-05,7.88952517396524e-05,-4.816011630245819e-05,0.5922134755547512,-0.00011773861830134055,-2.1912808713061242e-05,3.023107768936955e-06,-1.9593224135620667e-05,3.8178047867673176e-05,0.10324854893210764,432275.00794612226,432275.04474879714,432275.05949885113,432274.9750428539,6.057329368881068e-07,3.141592560460539,2.293762505119678e-06,20.00007889525174,-4.816011630245819e-05,3.5922134755547512,-2.0549265461072458e-06,-3.8245066040262006e-07,5.276318421056982e-08,7.501,-1.9593224135620667e-05,3.8178047867673176e-05,0.10324854893210764,-9.660483097518582e-07,-4.7451620722848814e-07
14.821964035705232,14.821964035705232,2.431940411113011e-07,2.431940411113011e-07,-6.996959231511486e-09,-6.996959231511486e-09,-3.385842927874494e-09,-3.385842927874494e-09,nan,TAKEOFF,0.0,0.0,0.0,-4.6268168316513164e-05,180.0,1.9429328907623864e-05,20.0,0.0,3.0,0.0,0.0,0.0,2.583243476508543e-05,-3.9006474007871405e-06,9.629832887375518e-05,6.684187643557493e-05,-2.9434631370194106e-05,0.6221495247280262,-0.00011057526041380515,-4.601888902940853e-05,2.4346223140546364e-06,-2.8386009719192247e-05,3.6137727959622076e-05,0.019094368609492464,433462.72518358025,433462.7903593762,433462.7811302167,433462.70965831494,-3.5667083553268794e-07,3.141592585510653,2.0198286639063003e-06,20.00006678505768,-2.9362381245210604e-05,3.622187248121238,-1.9304293928758465e-06,-8.052334334810802e-07,4.2422207498138664e-08,8.001,-2.8417164457390112e-05,3.612083482276013e-05,0.018784157904843515,-3.3910576089083265e-07,-8.075318759899888e-07
14.866940986966956,14.866940986966956,2.3627908889940605e-07,2.3627908889940605e-07,4.923672594726179e-08,4.923672594726179e-08,-3.6727514394060595e-09,-3.6727514394060595e-09,nan,TAKEOFF,0.0,0.0,0.0,-5.328268252043489e-05,180.0,-1.581693202063174e-05,20.0,0.0,3.0,0.0,0.0,0.0,-1.3266427340513655e-05,-2.72441749282086e-06,0.00010471766072922226,5.09484192754428e-05,-1.2779313252297422e-05,0.6135170052973242,-8.824900315104604e-05,-6.734929962946776e-05,1.8875459112597002e-06,-3.486184922794588e-05,3.007134618542848e-05,-0.05111933114524751,434778.04798283894,434778.13658313104,434778.10100464855,434778.0567092638,-1.161501081344978e-06,3.1415926060397377,1.5516104233871513e-06,20.000050948419275,-1.2779313252297422e-05,3.6135170052973242,-1.5402356665886041e-06,-1.1754670274464094e-06,3.2943890934038476e-08,8.5,-3.486184922794588e-05,3.007134618542848e-05,-0.05111933114524751,2.7605754132402057e-07,-9.299582442762857e-07
14.913404864227584,14.913404864227584,1.2191278117104815e-07,1.2191278117104815e-07,4.9718763034907496e-08,4.9718763034907496e-08,-1.7128929908126854e-08,-1.7128929908126854e-08,nan,TAKEOFF,0.0,0.0,0.0,-4.8781245548032766e-05,180.0,-4.713445353376852e-05,20.0,0.0,3.0,0.0,0.0,0.0,-4.942941414104139e-05,-1.491642844061085e-06,0.00010056751048263515,3.2512616382263104e-05,1.0015572238171897e-07,0.5734479824038523,-2.4241614900501225e-05,-6.54209846342737e-05,3.195869350112867e-06,-3.832949479232395e-05,2.1106870515997446e-05,-0.10652116398743541,436136.90580241603,436136.9651086418,436136.88012317417,436136.8655556092,-1.7140993721300146e-06,3.1415926275557142,9.325827731633581e-07,20.000032512616382,1.0015572238171897e-07,3.5734479824038523,-4.2309599601426393e-07,-1.1418115817646944e-06,5.577844262304094e-08,9.0,-3.832949479232395e-05,2.1106870515997446e-05,-0.10652116398743541,8.226514052921459e-07,-8.513933480368948e-07
14.95883200511283,14.95883200511283,2.354557690798184e-07,2.354557690798184e-07,1.0584776745333382e-07,1.0584776745333382e-07,-8.193988093262399e-09,-8.193988093262399e-09,nan,TAKEOFF,0.0,0.0,0.0,-3.577416043613028e-05,180.0,-7.217043440676366e-05,20.0,0.0,3.0,0.0,0.0,0.0,-7.839394967314255e-05,-5.911455773169196e-07,8.735382286050263e-05,1.3135314862466885e-05,8.178893032078732e-06,0.5093106443203994,-5.530981859094734e-05,-7.588606651066788e-05,1.4668734983070777e-06,-3.862531739390381e-05,1.1053266034200861e-05,-0.14695752951385976,437465.36142314493,437465.4760514464,437465.39847494557,437465.3790921228,-1.9935747606225592e-06,3.141592643297961,2.63675658461066e-07,20.000013096689546,8.178893032078732e-06,3.5093106443203994,-9.653384430928019e-07,-1.324461716998559e-06,2.5601772255705972e-08,9.501,-3.862531739390381e-05,1.1053266034200861e-05,-0.14695752951385976,1.2596117029920478e-06,-6.243768867471236e-07
15.00094295458831,15.00094295458831,4.4410948162779175e-08,4.4410948162779175e-08,1.2446880659412364e-07,1.2446880659412364e-07,-8.085390440690787e-09,-8.085390440690787e-09,nan,TAKEOFF,0.0,0.0,0.0,-1.5292821513583246e-05,180.0,-8.890723226965889e-05,20.0,0.0,3.0,0.0,0.0,0.0,-0.00010178097646954322,1.6070706694498858e-08,6.649201536015119e-05,-5.576676350926846e-06,1.105618960906572e-05,0.4289156365572806,3.305645425826589e-05,-7.114141838495278e-05,1.1484623683288846e-06,-3.5728364980831434e-05,5.922673717958984e-07,-0.17292519103291742,438696.9024951655,438696.9722726445,438696.88671520364,438696.92893905775,-2.0433232426202537e-06,-3.141592653309306,-3.91219337619617e-07,19.99999442332365,1.105618960906572e-05,3.4289156365572806,5.769439658416397e-07,-1.2416519853562529e-06,2.0044449662590883e-08,10.0,-3.5728364980831434e-05,5.922673717958984e-07,-0.17292519103291742,1.5517239319402205e-06,-2.669100873318474e-07
15.038560333438099,15.038560333438099,5.044967692044647e-08,5.044967692044647e-08,1.6161735164376612e-07,1.6161735164376612e-07,-6.163277188517613e-09,-6.163277188517613e-09,nan,TAKEOFF,0.0,0.0,0.0,8.178438451852817e-06,180.0,-9.619944200309147e-05,20.0,0.0,3.0,0.0,0.0,0.0,-0.00011078887206227576,4.3041423637860214e-07,3.720364680655639e-05,-2.2131686122861538e-05,8.990980425274944e-06,0.33850832881560633,3.513543963227175e-05,-6.780737189667543e-05,6.663599220712662e-07,-2.9910402144489116e-05,-8.522729747254982e-06,-0.18589680319193597,439796.9960172591,439797.08385582635,439796.9886110478,439797.0462013583,-1.7908899134009327e-06,-3.1415926460776475,-1.0296708710117924e-06,19.999977868313877,8.990980425274944e-06,3.3385083288156063,6.132291057188478e-07,-1.1834618967212583e-06,1.1630174643476426e-08,10.5,-2.9910402144489116e-05,-8.522729747254982e-06,-0.18589680319193597,1.6789970015344693e-06,1.4274067865653872e-07
15.070254654541001,15.070254654541001,0.0009961979593152747,0.0009961979593152747,0.0012557223174094352,0.0012557223174094352,-0.180843055854492,-0.180843055854492,nan,HOVER,0.0,0.0,0.0,9.582126194077039e-05,91.42453554179565,2.780654143384968e-05,20.0,0.0,3.0,0.0,0.0,0.0,-0.002922971794563505,88.57047488614658,-0.002921624947630022,-3.5176312749740646e-05,2.9067026685020555e-06,0.2447425065839024,-0.3969034045783913,-0.38245472357411686,-0.6918938594602284,-2.1934842342250893e-05,-1.5174067314319104e-05,-0.18714940690838044,755105.4988863518,787428.2111243606,125777.3642382485,94584.59433471045,-4.93589784968252e-05,3.14150556912912,-5.0492517804870945e-05,19.99996482368725,2.9067026685020555e-06,3.2447425065839024,-0.006927271222268065,-0.006675094166173115,-0.012075825921911901,11.0,-2.1934842342250893e-05,-1.5174067314319104e-05,-0.18714940690838044,1.6435746562053928e-06,5.404838003537948e-07
15.274016664909592,15.274016664909592,0.021841410930369565,0.021841410930369565,0.012444663953299632,0.012444663953299632,-0.031361589408173865,-0.031361589408173865,nan,HOVER,0.0,0.0,0.0,-0.2531756455247162,91.42453554179565,0.5119894632579859,20.0,0.0,3.0,0.0,0.0,0.0,-4.737884045604279,78.22499107447977,-4.130167113628902,0.01618115937658615,-0.029214794272200174,0.09877100498048952,-5.847912354406156,-2.92496008808866,-34.54935720823918,0.11021732674061527,-0.210639891296512,-0.2987857295017136,495434.4182376915,512576.0351311988,392332.2331040192,386388.7548787059,-0.08723687701511511,2.9597468721870186,-0.06335471092178645,20.016181159376586,-0.029214794272200174,3.0987710049804895,-0.10067702579291088,-0.050252614733340514,-0.6036112527505726,11.501,0.11021732674061527,-0.210639891296512,-0.2987857295017136,-0.004639512391621614,0.008823083061509345
15.278055971980079,15.278055971980079,-0.003763343986361923,-0.003763343986361923,0.003419348442822715,0.003419348442822715,0.016368909515034134,0.016368909515034134,nan,HOVER,0.0,0.0,0.0,-0.8382535115315982,91.42453554179565,1.893508811381057,20.0,0.0,3.0,0.0,0.0,0.0,-2.9242204958018005,60.72787795401472,-6.6538347937757845,0.12685358560136706,-0.25764616246438127,-0.03438710636185327,2.4046301571210815,2.744600465399706,-32.70208424712302,0.3252257450850381,-0.6937982490766156,-0.2376470743076476,418061.65834602504,415702.4947232826,474001.8944107296,479437.90592275944,-0.06572955392351139,2.6555605803577462,-0.08293423860539302,20.126853585601367,-0.25764616246438127,2.9656128936381467,0.04196871353451144,0.04790231477299357,-0.5707590423768677,12.001,0.3252257450850381,-0.6937982490766156,-0.2376470743076476,-0.015446584255079105,0.03266450079220136
15.230067057239388,15.230067057239388,-0.007841430347633467,-0.007841430347633467,-0.0017021579414618928,-0.0017021579414618928,0.017679589751663467,0.017679589751663467,nan,HOVER,0.0,0.0,0.0,-1.4057062396902014,91.42453554179565,3.2076612686022363,20.0,0.0,3.0,0.0,0.0,0.0,0.0519309047226163,46.14163443776186,-6.793902990572276,0.3291763812408455,-0.6930415250624559,-0.1395163641498094,2.427374419171629,4.2704920371288155,-25.597281927678694,0.47677108632927395,-1.0228353453129753,-0.18581694471837834,416065.5958958197,410047.51552618464,475500.0508190568,480007.6180742035,-0.023416804137838882,2.3996362540906024,-0.06239953829651781,20.330608089167594,-0.6961127142772818,2.8599268039647563,0.042290805127365695,0.07460260425854884,-0.44603719957099447,12.501,0.4774681256976943,-1.024176062874669,-0.1855074777182884,-0.02591479734136971,0.05531101649088322
15.197719569628251,15.197719569628251,-0.007176111248645042,-0.007176111248645042,-0.005341219001919388,-0.005341219001919388,0.01395606041069399,0.01395606041069399,nan,HOVER,0.0,0.0,0.0,-1.8895174800962655,91.42453554179565,4.180564298198116,20.0,0.0,3.0,0.0,0.0,0.0,1.9893024302908762,34.913216668664965,-5.623893775623131,0.5905182545959455,-1.2426890724888746,-0.21976965549750815,1.3216022379864436,4.588069878035741,-19.449889530857,0.5560104267653155,-1.1407040291284793,-0.13603453459974557,422358.4486072824,415527.24667543557,468947.8191964358,470972.80769695644,0.0017415759248345074,2.205009745641282,-0.025190851572155688,20.590518254595946,-1.2426890724888746,2.780230344502492,0.023066310454589116,0.08007692568329834,-0.3394646114626299,13.0,0.5560104267653155,-1.1407040291284793,-0.13603453459974557,-0.03477345911369375,0.07201802917759646
15.187387039607454,15.187387039607454,-0.005172779122566194,-0.005172779122566194,-0.0070784774959415635,-0.0070784774959415635,0.01057398075320676,0.01057398075320676,nan,HOVER,0.0,0.0,0.0,-2.2405681801125517,91.42453554179565,4.720392877855624,20.0,0.0,3.0,0.0,0.0,0.0,2.78437804951661,26.454073987743882,-3.90520432232495,0.8722957950273482,-1.8004448046083763,-0.27638654937432205,0.2990094303508318,4.133403580916873,-14.73889517553666,0.5612696926239009,-1.0659498732958193,-0.09204721520063398,428055.46452665346,421589.34446688875,463428.0839983247,463524.7454004105,0.009491272725941201,2.0573698539632286,0.014227724318586895,20.872295795027348,-1.8004448046083763,2.723613450625678,0.005218699054134678,0.07214150180072329,-0.2572422489194223,13.501,0.5612696926239009,-1.0659498732958193,-0.09204721520063398,-0.041127511026380605,0.08123298012230966
15.191603210165603,15.191603210165603,-0.002920061303090611,-0.002920061303090611,-0.007017119102943332,-0.007017119102943332,0.008009296471947303,0.008009296471947303,nan,HOVER,0.0,0.0,0.0,-2.4258563438767284,91.42453554179565,4.811961475487787,20.0,0.0,3.0,0.0,0.0,0.0,2.7279525565650657,20.0224099377431,-2.1019217441505793,1.1401061246226014,-2.282882716883257,-0.3127390484145427,-0.41480507209101675,3.1603739635536394,-11.1574537018797,0.4970444957273701,-0.8391479197471645,-0.05411364887552425,432315.7257002726,426951.08707266126,459386.81726119097,458437.20963346947,0.005272573569216555,1.9451161399085621,0.047299116171696826,21.1401061246226,-2.282882716883257,2.6872609515854573,-0.007239714261960682,0.05515893125831428,-0.19473430323663057,14.0,0.4970444957273701,-0.8391479197471645,-0.05411364887552425,-0.044397007296146214,0.08273254843693834
15.19792573335021,15.19792573335021,-0.0010029099806279974,-0.0010029099806279974,-0.005607052923540441,-0.005607052923540441,0.006093190711053441,0.006093190711053441,nan,HOVER,0.0,0.0,0.0,-2.426564728389974,91.42453554179565,4.491710579098921,20.0,0.0,3.0,0.0,0.0,0.0,2.1303556181238545,15.129363853921326,-0.4979868299624807,1.3606517415689652,-2.6246924235817573,-0.33144034845913417,-0.7650010972506667,1.918449274926635,-8.43693505373261,0.3730200419790564,-0.5110725211475071,-0.0211874503984879,435251.8999711257,431389.18626245746,456186.02946774836,455003.3231961475,-0.005169824248546718,1.8597163752940575,0.06970362883752293,21.360651741568965,-2.6246924235817573,2.668559651540866,-0.013351787928393474,0.03348325637996768,-0.14725229546455873,14.501,0.3730200419790564,-0.5110725211475071,-0.0211874503984879,-0.044270982218892266,0.07716789995209139
15.195442313455008,15.195442313455008,0.0003799950393795524,0.0003799950393795524,-0.003382857188816332,-0.003382857188816332,0.004639947941557336,0.004639947941557336,nan,HOVER,0.0,0.0,0.0,-2.2444970350473095,91.42453554179565,3.8490486835669087,20.0,0.0,3.0,0.0,0.0,0.0,1.265943872610168,11.44589249430979,0.7376202685453088,1.506097616137069,-2.7874862078002773,-0.33465253434729236,-0.811098595539305,0.6309047971718074,-6.386871582752338,0.20542472300157355,-0.14046300519856986,0.007658820251535532,437016.072089439,434792.20291691716,453275.8999006763,452455.75727527245,-0.017078974590331017,1.795427672165924,0.08005247491335632,21.50609761613707,-2.7874862078002773,2.6653474656527076,-0.014156341050462663,0.011011365977275048,-0.11147193802108978,15.0,0.20542472300157355,-0.14046300519856986,0.007658820251535532,-0.04081928214599935,0.06608219958191654
15.179008082250785,15.179008082250785,0.001186933422565273,0.001186933422565273,-0.0007722802194981017,-0.0007722802194981017,0.0034988981640408567,0.0034988981640408567,nan,HOVER,0.0,0.0,0.0,-1.8927065287605565,91.42453554179565,2.984630000913733,20.0,0.0,3.0,0.0,0.0,0.0,0.3224504369972736,8.648462839203344,1.550382322443535,1.560623870957503,-2.764748869517543,-0.3242496570075901,-0.6208161166162918,-0.5575372532812171,-4.824531097088598,0.00968022239682111,0.22527351682420166,0.03321491264924119,437822.0969900058,437196.14855476475,450334.10552104574,450265.12952754373,-0.027406138900767495,1.746603314091387,0.07915089666110207,21.560623870957503,-2.764748869517543,2.67575034299241,-0.010835285284399369,-0.009730860772282796,-0.08420395250905024,15.501,0.00968022239682111,0.22527351682420166,0.03321491264924119,-0.03431146541538971,0.05120249048125036
15.15033078943204,15.15033078943204,0.0014564445370336971,0.0014564445370336971,0.0017856461628171082,0.0017856461628171082,0.0026117457962251895,0.0026117457962251895,nan,HOVER,0.0,0.0,0.0,-1.4023293862790018,91.42453554179565,2.024788712291762,20.0,0.0,3.0,0.0,0.0,0.0,-0.552329013226428,6.559620925452533,1.9179995905115141,1.514669392714417,-2.57124664588231,-0.30213840534941383,-0.2737789794553977,-1.508486919335262,-3.6531834105353638,-0.19313448535558062,0.5379416582090858,0.054595344273408244,437914.7922883857,438669.19459411193,447413.2417077905,448265.625524903,-0.03411522482313245,1.7101461451427762,0.06881463759303634,21.514669392714417,-2.57124664588231,2.697861594650586,-0.004778344614246602,-0.02632806346566643,-0.0637600786930778,16.0,-0.19313448535558062,0.5379416582090858,0.054595344273408244,-0.02534335478999817,0.03470197486265052
15.115846703683298,15.115846703683298,0.0013172154751149544,0.0013172154751149544,0.003997353764930817,0.003997353764930817,0.001934128096670307,0.001934128096670307,nan,HOVER,0.0,0.0,0.0,-0.8146123371175675,91.42453554179565,1.0852254467995455,20.0,0.0,3.0,0.0,0.0,0.0,-1.2689967871581944,5.003302541722885,1.8775618278952781,1.3703611828165059,-2.243223518440952,-0.27075491594424905,0.14345919054856304,-2.1534783922639282,-2.7784499020065714,-0.38377379794315775,0.7657254975596554,0.07069705855410685,437607.7284620425,439436.3945175284,444708.27188938705,446476.5628858151,-0.036365839543207754,1.6829832651373773,0.05171039297961435,21.370361182816506,-2.243223518440952,2.729245084055751,0.0025038352173183554,-0.03758528831555953,-0.048493098891728474,16.5,-0.38377379794315775,0.7657254975596554,0.07069705855410685,-0.01468359106271356,0.01857841429956359
15.08263243784795,15.08263243784795,0.000820081434443548,0.000820081434443548,0.0056605753706162895,0.0056605753706162895,0.0014230048446850013,0.0014230048446850013,nan,HOVER,0.0,0.0,0.0,-0.166422525491357,91.42453554179565,0.25040378292302984,20.0,0.0,3.0,0.0,0.0,0.0,-1.7782575372958171,3.822276630699575,1.4913453458361592,1.1345629546428349,-1.821533504359185,-0.23240906114832116,0.5935269791022149,-2.4607037322164675,-2.113355000673519,-0.5471150914821185,0.8925640753666161,0.08061983571964629,437222.4524115486,439748.13794183417,442411.44502910424,444975.46674661955,-0.03396778937742522,1.6622996122533094,0.030362463854949354,21.13346787207354,-1.8197479468510747,2.767752217242147,0.010358999984749227,-0.042947382043290225,-0.036885003025239886,17.0,-0.547683288633882,0.8928501695336599,0.08064563973157257,-0.003058906121380533,0.004347191709763879
15.057671419182418,15.057671419182418,0.00013905575422682088,0.00013905575422682088,0.006592196268272128,0.006592196268272128,0.0010617430202526958,0.0010617430202526958,nan,HOVER,0.0,0.0,0.0,0.46777937977942513,91.42453554179565,-0.3779980517344704,20.0,0.0,3.0,0.0,0.0,0.0,-2.034310421859036,2.93143935901479,0.8568432094257707,0.8287749134897986,-1.3652758446176323,-0.19096223404082124,0.9861999373257129,-2.4261498101244707,-1.6187439434666595,-0.6647684758067602,0.9113171034242527,0.08371585828119572,437005.35812847887,439825.20790802204,440740.5492104469,443852.58543578757,-0.02734112451898705,1.646822430948272,0.008357424608944642,20.8287749134898,-1.3652758446176323,2.8090377659591788,0.01721243598929541,-0.04234430233330727,-0.02825241156021016,17.501,-0.6647684758067602,0.9113171034242527,0.08371585828119572,0.008325680680793441,-0.006392039688694376
15.04305282670591,15.04305282670591,-0.000633685944677781,-0.000633685944677781,0.006789809090997934,0.006789809090997934,0.0008087537362728925,0.0008087537362728925,nan,HOVER,0.0,0.0,0.0,1.0367195179946913,91.42453554179565,-0.7644037654505821,20.0,0.0,3.0,0.0,0.0,0.0,-2.030205603297027,2.2458342666450104,0.08427246882433129,0.477829256503739,-0.9248057043764046,-0.1495715593753837,1.285382085951773,-2.1035989538213387,-1.2418900101049155,-0.7259906514794423,0.8323362756277088,0.08057919284271679,437081.3917274525,439818.9658868444,439720.5757341569,443092.7064263288,-0.017285091019101362,1.63485636471798,-0.011897724491000149,20.47782925650374,-0.9248057043764046,2.8504284406246163,0.022446158119430754,-0.03665260500797117,-0.02164040617927372,18.0,-0.7259906514794423,0.8323362756277088,0.08057919284271679,0.018419195530149188,-0.01288485890177273
15.037952710559143,15.037952710559143,-0.00133215639052595,-0.00133215639052595,0.006303669307594001,0.006303669307594001,0.0006312731608982649,0.0006312731608982649,nan,HOVER,0.0,0.0,0.0,1.4935469575687106,91.42453554179565,-0.8986047147723357,20.0,0.0,3.0,0.0,0.0,0.0,-1.7859210948785447,1.7127565222724748,-0.7103120655587202,0.11251212410895306,-0.5450321267244151,-0.11111196045306881,1.4372573851711403,-1.5560945290290928,-0.9477544751876226,-0.7247058697054367,0.6763387438121562,0.07261424698286921,437447.8207236588,439803.0290082849,439274.5674773393,442591.61866792035,-0.005102891343734602,1.625552402909574,-0.028080895207363267,20.112512124108953,-0.5450321267244151,2.888888039546931,0.025084873569840724,-0.027158973003828153,-0.016541436092534917,18.5,-0.7247058697054367,0.6763387438121562,0.07261424698286921,0.026446054760370395,-0.01502482743609025
15.039063317349733,15.039063317349733,-0.0018687396214388562,-0.0018687396214388562,0.005241234637218517,0.005241234637218517,0.0004974010166487522,0.0004974010166487522,nan,HOVER,0.0,0.0,0.0,1.7897100929457952,91.42453554179565,-0.7976772826479553,20.0,0.0,3.0,0.0,0.0,0.0,-1.3451854294252297,1.2975021750686362,-1.4227036679725609,-0.2364386821392621,-0.2569658457511409,-0.07747053936920345,1.4270296703024263,-0.8783812869565547,-0.7205033826506124,-0.6612021717369014,0.47053971757701857,0.0616259996083728,438027.0666169939,439778.1217189159,439238.28785314434,442203.4767960888,0.007758418984753798,1.6183048473176476,-0.03875295823688964,19.763561317860738,-0.2569658457511409,2.9225294606307965,0.024906366270426486,-0.015330645545297,-0.012575156299009776,19.0,-0.6612021717369014,0.47053971757701857,0.0616259996083728,0.03156752904952592,-0.013134135901965445
15.042467382257403,15.042467382257403,-0.0021622158979280135,-0.0021622158979280135,0.0038060662347315483,0.0038060662347315483,0.00038640903273590285,0.00038640903273590285,nan,HOVER,0.0,0.0,0.0,1.9044217202713618,91.42453554179565,-0.5127968745286607,20.0,0.0,3.0,0.0,0.0,0.0,-0.7736957940572698,0.9812820236478267,-1.963916767457755,-0.5376421618308491,-0.07866558804727466,-0.049847816549696056,1.2557234191652442,-0.17282572817421243,-0.5460162286810053,-0.5427742707887214,0.24674056730383903,0.04948415803935842,438683.54972990556,439726.4796382121,439426.6129920054,441808.5130057275,0.019734890350098365,1.6127857645141996,-0.043226807681723024,19.460189609318604,-0.0776831198297187,2.9503498736718323,0.021916508158834377,-0.0030163779887967352,-0.009529780959805837,19.5,-0.5416266263242752,0.24494303153968414,0.04938559555716163,0.033444411950050414,-0.00811600206430906
15.045204971925418,15.045204971925418,-0.002171971688221026,-0.002171971688221026,0.0021472067869835877,0.0021472067869835877,0.00028760149296900466,0.00028760149296900466,nan,HOVER,0.0,0.0,0.0,1.8339955997217474,91.42453554179565,-0.10477843323152465,20.0,0.0,3.0,0.0,0.0,0.0,-0.13798039170130932,0.7448961374917408,-2.2824058139275354,-0.7701695118754905,-0.010102158325291344,-0.028116110191187538,0.9399026557156042,0.48973702723925605,-0.41336270564675276,-0.37980426539814255,0.03142398004159176,0.037408780543053737,439310.1422247772,439621.2053566255,439706.4895807936,441327.5573156491,0.029601049543853182,1.608660052495531,-0.04166422496466769,19.22983048812451,-0.010102158325291344,2.9718838898088125,0.01640439599047599,0.008547523594254173,-0.007214540218487992,20.0,-0.37980426539814255,0.03142398004159176,0.037408780543053737,0.0320393440340154,-0.0010316028134259873
15.04588137433031,15.04588137433031,-0.0018713258513529734,-0.0018713258513529734,0.0004994652145664022,0.0004994652145664022,0.0002020470543233019,0.0002020470543233019,nan,HOVER,0.0,0.0,0.0,1.5930978947704877,91.42453554179565,0.34876153514466746,20.0,0.0,3.0,0.0,0.0,0.0,0.4750572092658677,0.5768732799292853,-2.3463770035371696,-0.9131707848358772,-0.04103276192953127,-0.01225659454228678,0.5118832095133129,1.0220696154612483,-0.31708353551781443,-0.1909038414056463,-0.14729777818090445,0.026386412747382057,439807.65809422464,439476.0026678611,439989.883381568,440770.97486772714,0.03609611600736027,1.605727500412457,-0.03486496711221788,19.086829215164123,-0.04103276192953127,2.987743405457713,0.00893404739168327,0.017838479974391124,-0.005534151698650245,20.5,-0.1909038414056463,-0.14729777818090445,0.026386412747382057,0.02764136267542109,0.006773912129811964
15.0447987972542,15.0447987972542,-0.0013203777793754673,-0.0013203777793754673,-0.0009672809095395752,-0.0009672809095395752,0.00013328034909184373,0.00013328034909184373,nan,HOVER,0.0,0.0,0.0,1.2113519766304313,91.42453554179565,0.7805946001700197,20.0,0.0,3.0,0.0,0.0,0.0,0.9973999937356536,0.4588330739439913,-2.1614971299010364,-0.9593623989020266,-0.14927204689003062,-0.0015035686522022473,0.029356811224971757,1.3752866444534042,-0.24846084825747827,0.006212571923155916,-0.2725019923910835,0.016618576887119686,440148.93639521964,439322.78729666595,440245.2003874552,440200.95669784106,0.0385499942428004,1.603667310168281,-0.024101295792925123,19.040637601097973,-0.14927204689003062,2.9984964313477978,0.0005123730137621869,0.024003280104416515,-0.004336459864391012,21.001,0.006212571923155916,-0.2725019923910835,0.016618576887119686,0.02079536274960853,0.014141828932081888
15.04334217268655,15.04334217268655,-0.0005696426431176356,-0.0005696426431176356,-0.002096874657581145,-0.002096874657581145,8.665647110549666e-05,8.665647110549666e-05,nan,HOVER,0.0,0.0,0.0,0.7425622518247308,91.42453554179565,1.1218011229504514,20.0,0.0,3.0,0.0,0.0,0.0,1.3602572160964372,0.37535423384364436,-1.7674654037534616,-0.909873550375444,-0.30292194282669394,0.004642050337414272,-0.4533103475436278,1.5216111026748302,-0.200405675556613,0.18780178205477238,-0.3321389394228826,0.008234696927247924,440337.0629531344,439219.90108314145,440480.1007012309,439710.42229385406,0.03670112329025966,1.6022103295527843,-0.011268967562533745,19.090126449624556,-0.30292194282669394,3.0046420503374143,-0.007911758097996095,0.026557123676577286,-0.0034977388781464165,21.501,0.18780178205477238,-0.3321389394228826,0.008234696927247924,0.012469117582900407,0.019892361773826268
15.043051139823378,15.043051139823378,0.0002634566489971901,0.0002634566489971901,-0.0027755964544089263,-0.0027755964544089263,6.153543055970536e-05,6.153543055970536e-05,nan,HOVER,0.0,0.0,0.0,0.24052156832103183,91.42453554179565,1.3313372842043756,20.0,0.0,3.0,0.0,0.0,0.0,1.5283336641980039,0.3103450375006698,-1.2232779722263731,-0.7772243457446173,-0.46987285837786436,0.0068970146400171295,-0.8714810031776251,1.4558522681459942,-0.16458789408026653,0.3367391753339384,-0.3265215572933713,0.00099632833431091,440408.94812534226,439222.8255384354,440696.5618997363,439385.1068822932,0.030872347798587045,1.601075705032524,0.0018859907814558902,19.222775654255383,-0.46987285837786436,3.006897014640017,-0.015210212874032724,0.025409415501774963,-0.002872600660624335,22.0,0.3367391753339384,-0.3265215572933713,0.00099632833431091,0.0036189818401428262,0.023331103137155113
15.044945165574433,15.044945165574433,0.0010909600928027529,0.0010909600928027529,-0.0030019938883119397,-0.0030019938883119397,5.304034575042595e-05,5.304034575042595e-05,nan,HOVER,0.0,0.0,0.0,-0.23535726384557668,91.42453554179565,1.3856381525609793,20.0,0.0,3.0,0.0,0.0,0.0,1.4871802370347686,0.2538605120246035,-0.6039290075961862,-0.5820318244607279,-0.6188341999241391,0.005806693717769651,-1.1801937976898424,1.216015590300178,-0.13521409727708159,0.4381608014581577,-0.2632382193149211,-0.0051935088377636305,440415.6796345719,439356.40815952484,440902.5124827578,439257.51971872366,0.021765850487037646,1.6000822833605732,0.013728324919300433,19.419722307562605,-0.6198853857308148,3.0057858057040066,-0.02063226277961632,0.02116167880351879,-0.0023560714806671254,22.5,0.43875587099303687,-0.2625310364893944,-0.005239091346317271,-0.004707633961750105,0.024071793335556056
15.049066659501543,15.049066659501543,0.0017939590814984936,0.0017939590814984936,-0.00276755032401058,-0.00276755032401058,5.2097300932013323e-05,5.2097300932013323e-05,nan,HOVER,0.0,0.0,0.0,-0.634855636422094,91.42453554179565,1.2829609361029852,20.0,0.0,3.0,0.0,0.0,0.0,1.2467385426200328,0.20151265744504043,0.01710357342451158,-0.3486480233152456,-0.7251789320267069,0.0018605490786152146,-1.3443406942296594,0.8331956840690123,-0.10874982287629817,0.48353920063726324,-0.15561621899252417,-0.010364717639057828,440386.3511845695,439631.76750843506,441067.38195869996,439331.6282166623,0.010679371349825651,1.5991762216677714,0.02269040617958001,19.653286441075434,-0.7257989266522139,3.001818998371337,-0.023463171382853892,0.01454200800041073,-0.001898042470152053,23.0,0.48353920063726324,-0.15561621899252417,-0.010364717639057828,-0.011633257839136024,0.022106273198961753
15.054709704794037,15.054709704794037,0.002300967801313623,0.002300967801313623,-0.0021567982406025497,-0.0021567982406025497,4.993298313748543e-05,4.993298313748543e-05,nan,HOVER,0.0,0.0,0.0,-0.9112176329850313,91.42453554179565,1.043491807519173,20.0,0.0,3.0,0.0,0.0,0.0,0.8421028905449343,0.15481901315124996,0.562544244988474,-0.10743829318181142,-0.7703876338208011,-0.004386928111929755,-1.3452487412747187,0.3747149537805992,-0.0847954973493769,0.4696999201840655,-0.022582203837935143,-0.01435933761767535,440347.14740880014,440008.9405817165,441161.8552846871,439559.30052365386,-0.0012206254530410941,1.59836126383509,0.028009831528478295,19.89256170681819,-0.7703876338208011,2.9956130718880702,-0.023479019793553182,0.00654000969992983,-0.0014799606196127513,23.5,0.4696999201840655,-0.022582203837935143,-0.01435933761767535,-0.0163508445814877,0.017808075284769572
15.060572861607682,15.060572861607682,0.0025348308124219987,0.0025348308124219987,-0.001275071964427732,-0.001275071964427732,4.1629513252293684e-05,4.1629513252293684e-05,nan,HOVER,0.0,0.0,0.0,-1.040042156365935,91.42453554179565,0.701974669356699,20.0,0.0,3.0,0.0,0.0,0.0,0.33164805776704037,0.11746742837865809,0.9708315476775697,0.11197645565789216,-0.7470836051887377,-0.012277876723810088,-1.1836919917132154,-0.09765736851117618,-0.06463231062232447,0.40152751802874903,0.11484489029623123,-0.017036935610464085,440302.1477647224,440427.2258288692,441153.0826646529,439880.65078499337,-0.012363809422248061,1.5977093556999704,0.029195976235078844,20.111976455657892,-0.7470836051887377,2.98772212327619,-0.020659322584885044,-0.0017044426193534572,-0.0011280466235312672,24.0,0.40152751802874903,0.11484489029623123,-0.017036935610464085,-0.018450077811627944,0.011794415602035941
15.065469190174861,15.065469190174861,0.002479427805569772,0.002479427805569772,-0.00024548582638739334,-0.00024548582638739334,2.6623763744471585e-05,2.6623763744471585e-05,nan,HOVER,0.0,0.0,0.0,-1.0123977553471513,91.42453554179565,0.30699930339668585,20.0,0.0,3.0,0.0,0.0,0.0,-0.2197977948635596,0.09200769014084209,1.2053647547749342,0.28650196495711455,-0.6575931029413876,-0.021200722554466367,-0.885595004827581,-0.528198644626484,-0.04958575953192963,0.2892777263542447,0.2382302354681648,-0.018353964776562176,440247.56145960675,440823.0493869215,441030.82294374076,440234.4383867314,-0.02150586937960001,1.5972649994410246,0.026395732303917823,20.286501964957115,-0.6575931029413876,2.9787992774455336,-0.015456548673456366,-0.009218805453303601,-0.0008654347659343344,24.501,0.2892777263542447,0.2382302354681648,-0.018353964776562176,-0.01779647755167476,0.004916380748238705
15.068607489737694,15.068607489737694,0.002133646800743943,0.002133646800743943,0.000778095237270411,0.000778095237270411,9.164762437608663e-06,9.164762437608663e-06,nan,HOVER,0.0,0.0,0.0,-0.8411731975596192,91.42453554179565,-0.0877944755013864,20.0,0.0,3.0,0.0,0.0,0.0,-0.7389625181368903,0.07856032454051817,1.2482336820347686,0.3969858467718588,-0.5134627137901955,-0.0304513353183955,-0.4871034989318446,-0.8611282160082381,-0.04038818296784174,0.14885494209270186,0.3306916417784487,-0.018373442893628134,440187.62172560644,441130.3686356782,440813.7926472305,440571.20271983906,-0.02756214667597219,1.5970302986355793,0.020227004054361702,20.39698584677186,-0.5134627137901955,2.9695486646816045,-0.008501559854345371,-0.015029522651168695,-0.0007049067716867334,25.0,0.14885494209270186,0.3306916417784487,-0.018373442893628134,-0.014638087856450757,-0.0018966299871263038
15.069916480354955,15.069916480354955,0.0015708967963642179,0.0015708967963642179,0.0016611429006155563,0.0016611429006155563,-5.066306768497367e-06,-5.066306768497367e-06,nan,HOVER,0.0,0.0,0.0,-0.5539960582269433,91.42453554179565,-0.4363853651717261,20.0,0.0,3.0,0.0,0.0,0.0,-1.1624477743980821,0.07374874325960633,1.1083702694792796,0.4338941364064226,-0.3328509620813991,-0.03944842795823833,-0.0520786716060393,-1.0590459073523149,-0.036139014187891366,-0.001514304420798631,0.38112359705944765,-0.017320128686909506,440130.3948429604,441316.18017464393,440550.2830030988,440859.25145653816,-0.029922900032489017,1.5969463207,0.011695958480878422,20.433894136406423,-0.3328509620813991,2.9605515720417617,-0.000861424843243673,-0.018499482440629447,-0.0006304898583200467,25.501,-0.001514304420798631,0.38112359705944765,-0.017320128686909506,-0.009441092958087125,-0.007885467773077394
15.069917519013769,15.069917519013769,0.0008527548884236935,0.0008527548884236935,0.0023031679378295576,0.0023031679378295576,-1.1780568596151122e-05,-1.1780568596151122e-05,nan,HOVER,0.0,0.0,0.0,-0.19326169433897017,91.42453554179565,-0.6966911978030736,20.0,0.0,3.0,0.0,0.0,0.0,-1.4377664085890565,0.07231693507864213,0.8197713613896209,0.39746259499437997,-0.14025526519358505,-0.04765219249956987,0.3766879021958805,-1.1110252883342895,-0.034675834509577945,-0.14150363255725126,0.3845487134857405,-0.015536545681641789,440097.6925210445,441373.4877539851,440294.1879181003,441090.86278485355,-0.02846681058865103,1.596921330932985,0.0021481540984784825,20.39746259499438,-0.14025526519358505,2.95234780750043,0.006574444145748493,-0.019391049354352697,-0.0006052074830688083,26.001,-0.14150363255725126,0.3845487134857405,-0.015536545681641789,-0.0030697232918114924,-0.012239283350081136
15.069412598194868,15.069412598194868,8.2489334193895e-05,8.2489334193895e-05,0.002622270971440036,0.002622270971440036,-9.989953918701205e-06,-9.989953918701205e-06,nan,HOVER,0.0,0.0,0.0,0.19024772410579183,91.42453554179565,-0.8414028178812079,20.0,0.0,3.0,0.0,0.0,0.0,-1.5396939558642573,0.06934747620079815,0.42868738258700495,0.29688811882352084,0.043002322055681365,-0.05486737971837119,0.7369374840705206,-1.0125682077327436,-0.03360571049001332,-0.2558267403796016,0.34297635762542,-0.013343564999666328,440115.2915686245,441319.81053691724,440103.48646409827,441258.5775322001,-0.02355227982281569,1.5968695040985643,-0.007203243219685453,20.29688811882352,0.043002322055681365,2.945132620281629,0.012861985478393848,-0.01767264912595428,-0.0005865302955227294,26.5,-0.2558267403796016,0.34297635762542,-0.013343564999666328,0.0036844810409298948,-0.014597555108417256
15.069090686215395,15.069090686215395,-0.0006508410708804976,-0.0006508410708804976,0.0026157901375677963,0.0026157901375677963,-2.443283497542209e-06,-2.443283497542209e-06,nan,HOVER,0.0,0.0,0.0,0.5489123097968971,91.42453554179565,-0.860970249697919,20.0,0.0,3.0,0.0,0.0,0.0,-1.4607068123318556,0.06223296652977265,-0.007769927177196586,0.14820953839057793,0.1959403820282195,-0.060955624051850066,0.9918669898171883,-0.7923306664488748,-0.031147092648029687,-0.3314300367126996,0.2635025542230204,-0.011008880904059458,440196.3220896017,441192.36418542813,440006.54339324584,441364.2796555413,-0.01591381617081881,1.59674533248014,-0.015162376430828671,20.148209538390578,0.1959403820282195,2.93904437594815,0.017311344714155005,-0.013828778894053833,-0.0005436193191318373,27.0,-0.3314300367126996,0.2635025542230204,-0.011008880904059458,0.009950757977446928,-0.014782700777486087
15.069275984062829,15.069277700520995,-0.0012528791478308655,-0.0012545074734660287,0.002285484523524305,0.0022846750071524526,5.7746395899262865e-06,5.800603510522705e-06,nan,HOVER,0.0,0.0,0.0,0.8384163727624699,91.42453554179565,-0.7600999853129747,20.0,0.0,3.0,0.0,0.0,0.0,-1.2160129097641073,0.05139495281974491,-0.43065400632664,-0.027527496849010902,0.3023825417798382,-0.06589741069685617,1.1112046434128504,-0.480331356123015,-0.02678159653600703,-0.3605510531846574,0.15713771954604266,-0.008688385270922807,440345.99455354904,441023.493876201,440016.78367330594,441395.1138722751,-0.006551496782557869,1.5965553489741093,-0.02079932320868133,19.97175141003101,0.30269704480017,2.934085208012843,0.019394579321046993,-0.008365281558839558,-0.0004670699896267111,27.503,-0.3605510531846574,0.15713771954604266,-0.008688385270922807,0.014957839132051414,-0.012896567879505176
15.069827743726501,15.069827743726501,-0.001654948147428641,-0.001654948147428641,0.0016967797451796882,0.0016967797451796882,9.835281677350928e-06,9.835281677350928e-06,nan,HOVER,0.0,0.0,0.0,1.0221157930616496,91.42453554179565,-0.5612395945544839,20.0,0.0,3.0,0.0,0.0,0.0,-0.8460939432517643,0.039796779619426084,-0.7811888054829402,-0.2042849719554063,0.3519718765227813,-0.06967545889453053,1.0876388982296374,-0.12586662187451225,-0.021371394483273375,-0.3416545326497505,0.041185065800626246,-0.006496007027749299,440543.0745185538,440843.8364433641,440116.37955688953,441342.43868142256,0.0030721608346334505,1.5963537471469615,-0.02342979555293262,19.795715028044594,0.3519718765227813,2.9303245411054695,0.0189828798468707,-0.0021967869700729556,-0.0003730011994756726,28.0,-0.3416545326497505,0.041185065800626246,-0.006496007027749299,0.01807630219585861,-0.009347270660843066
15.070298336735455,15.070298336735455,-0.0018097703181196943,-0.0018097703181196943,0.0009367308668115518,0.0009367308668115518,8.09073083314013e-06,8.09073083314013e-06,nan,HOVER,0.0,0.0,0.0,1.0836985366522682,91.42453554179565,-0.2945667428508536,20.0,0.0,3.0,0.0,0.0,0.0,-0.39876380033023495,0.030732980842649794,-1.021559949210054,-0.36116853968261253,0.34378668864518463,-0.07238949248975812,0.9261049898386172,0.22567434491025215,-0.016422673354493964,-0.27946055207204124,-0.07182453573508647,-0.004379152570432981,440752.41377684503,440668.3991569043,440276.5240516049,441203.4414755662,0.011954366310098675,1.5961955540155683,-0.02297074414984435,19.638831460317387,0.34378668864518463,2.927610507510242,0.0161635812918325,0.003938760355965207,-0.0002866297220154616,28.501,-0.27946055207204124,-0.07182453573508647,-0.004379152570432981,0.0190349217333827,-0.004668446784517963
15.070185650173935,15.070183547642088,-0.00172402569490983,-0.0017234728976864566,0.00010502851497174279,0.0001016419626237283,1.7310974837159528e-06,1.700383693572213e-06,nan,HOVER,0.0,0.0,0.0,1.0196220839001833,91.42453554179565,-8.711463520973038e-05,20.0,0.0,3.0,0.0,0.0,0.0,0.06472169229716558,0.026492113029910867,-1.1243127360557408,-0.47787818441344854,0.28320000403158907,-0.07406506394449774,0.6599086291420797,0.5302309858508574,-0.013324437661695545,-0.1839819599851404,-0.16683318419897106,-0.002356858056402263,440935.34666487464,440502.1234518699,440461.19746995874,440988.9289701442,0.01894837714222818,1.5961214230763456,-0.019605936893459595,19.52175450045423,0.2828658439659311,2.925930234184313,0.01149786548168906,0.00927332093955387,-0.00023242070398376316,29.001,-0.1835494080192017,-0.16716227679295562,-0.0023489616531999213,0.017789361264068305,0.0004408644553679775
15.069203030193398,15.069203030193398,-0.0013993256028542878,-0.0013993256028542878,-0.000691261773252816,-0.000691261773252816,-6.028020019464834e-06,-6.028020019464834e-06,nan,HOVER,0.0,0.0,0.0,0.8427255654898516,91.42453554179565,0.2832187524974969,20.0,0.0,3.0,0.0,0.0,0.0,0.48789572928097563,0.02707847862599655,-1.0828957572445015,-0.5414318471007071,0.1817688478656374,-0.07476000100774804,0.31791723132163463,0.7519307217266024,-0.012561402809979713,-0.06840383265120112,-0.23325136371473665,-0.0004523114851357219,441054.03161742416,440354.32985574513,440643.3045746212,440720.9851051961,0.02322372269090094,1.5961317709193668,-0.013956996685321554,19.458568152899293,0.1817688478656374,2.925239998992252,0.005548702435386968,0.013123666841026472,-0.0002192378377034136,29.501,-0.06840383265120112,-0.23325136371473665,-0.0004523114851357219,0.014580386812343199,0.00530665744385789
15.067409847236867,15.067409847236867,-0.0009073127762115379,-0.0009073127762115379,-0.0013491482150886657,-0.0013491482150886657,-1.148098515081258e-05,-1.148098515081258e-05,nan,HOVER,0.0,0.0,0.0,0.5796854647122162,91.42453554179565,0.5182846623552847,20.0,0.0,3.0,0.0,0.0,0.0,0.8193180274322355,0.03044632102369495,-0.908969925843031,-0.5452647501677639,0.0550615131468174,-0.07454517837921859,-0.04387822737934391,0.8640424658134321,-0.013602165923929982,0.05234111029150287,-0.2641833859976177,0.0012601730402006048,441090.56239260494,440232.85089994135,440797.88635735464,440441.5876643509,0.0244148364574202,1.596190943461336,-0.006773482054134059,19.454735249832236,0.0550615131468174,2.9254548216207814,-0.0008063675134934212,0.015089132834103023,-0.00023756611966015666,30.0,0.05234111029150287,-0.2641833859976177,0.0012601730402006048,0.009889254658426123,0.009293909492923288
15.065227845085497,15.065227845085497,-0.00030637065134117043,-0.00030637065134117043,-0.0017966232337686206,-0.0017966232337686206,-1.2158165513079797e-05,-1.2158165513079797e-05,nan,HOVER,0.0,0.0,0.0,0.266115311528706,91.42453554179565,0.677055855261522,20.0,0.0,3.0,0.0,0.0,0.0,1.0225024318312494,0.03358801806780225,-0.6304013810725563,-0.49133730746650883,-0.07634980752923953,-0.07355595462345166,-0.3883055732099256,0.8621609005479495,-0.015216872057866605,0.16102828545223621,-0.25751098190814514,0.002651100463755886,441044.90546963597,440153.3596474982,440917.24636182585,440192.12851335417,0.02247022981172507,1.5962456011253976,0.0008593974308252847,19.50914696513847,-0.07712204305749168,2.92645201321607,-0.006777210756357088,0.015047546396521103,-0.00026558451926449736,30.501,0.16162206170959176,-0.2573621341322184,0.0026583681544168555,0.004349375984644082,0.011928264708466235
15.063154335472406,15.063146903554886,0.00031633332589827524,0.0003187719702738574,-0.0019814429481022572,-0.001982682931153731,-8.287040823689041e-06,-8.265066430195772e-06,nan,HOVER,0.0,0.0,0.0,-0.055067708505917926,91.42453554179565,0.7419207554637921,20.0,0.0,3.0,0.0,0.0,0.0,1.0771905627900293,0.034017619167107764,-0.2893771782832115,-0.3885350311032987,-0.19592693519144452,-0.07196523096117247,-0.6657008770946515,0.7478905567274173,-0.016064257901161935,0.2458973122834838,-0.21661759859057667,0.0036513092670182063,440932.3867640159,440130.4491411219,440991.6406360882,440010.60742270795,0.01781614652913771,1.5962527863235065,0.007924478645954471,19.611957179726666,-0.1963598339649928,2.928042076365335,-0.011635038878070034,0.013047237512662771,-0.0002803853401820986,31.0,0.24617473699096656,-0.21639327968569122,0.0036544473095732437,-0.0012827211801515253,0.012920696650448208
15.061614097800996,15.061614097800996,0.0008867794893111701,0.0008867794893111701,-0.0019061389711568664,-0.0019061389711568664,-1.9873480343153232e-06,-1.9873480343153232e-06,nan,HOVER,0.0,0.0,0.0,-0.34602853344203316,91.42453554179565,0.7093533287566272,20.0,0.0,3.0,0.0,0.0,0.0,0.9844837300744496,0.030913693637674735,0.0705697430573913,-0.24999659150674702,-0.2887049418905922,-0.06996270564267482,-0.8470227154127912,0.5458182087112248,-0.015390631470725226,0.2972706083863098,-0.14836330611148715,0.004218560141908322,440781.36779070954,440168.9042806907,441020.34608254704,439915.11247926473,0.011098757466839944,1.596198219596334,0.013640745308362,19.750003408493253,-0.2887049418905922,2.930037294357325,-0.014798864776379254,0.009493201459738402,-0.00026846035371740025,31.501,0.2974636564161,-0.14789221766303032,0.004220662140703418,-0.006345204388099582,0.012226044210936548
15.060810219708285,15.060810219708285,0.0013173440282347893,0.0013173440282347893,-0.0015944590537339614,-0.0015944590537339614,3.342662057048133e-06,3.342662057048133e-06,nan,HOVER,0.0,0.0,0.0,-0.5704598565208995,91.42453554179565,0.5879455717779901,20.0,0.0,3.0,0.0,0.0,0.0,0.7641936090170003,0.02531561989351415,0.4011658046710681,-0.0974591052944973,-0.34161466705157056,-0.06781058072749868,-0.9111244710096403,0.28479097370520934,-0.013261424533246895,0.30984336410063346,-0.06338175340986466,0.004379182166014987,440617.1333300878,440266.0837264126,440995.67776557925,439911.9780139101,0.003381291853300743,1.5961010032302372,0.017263250187969165,19.9034703384999,-0.3418037382826874,2.9322025566535093,-0.015902121914609848,0.0049705401711164976,-0.00023145552160991055,32.0,0.3098000599906127,-0.06284471906561652,0.004379097988503009,-0.01020824985311938,0.010010211268425186
15.060583713574351,15.060583569732996,0.0015787826246443316,0.0015797182332922893,-0.0010880360172584324,-0.0010853583083200752,5.2013800777493534e-06,5.20093054635048e-06,nan,HOVER,0.0,0.0,0.0,-0.704704502180922,91.42453554179565,0.39694681118512437,20.0,0.0,3.0,0.0,0.0,0.0,0.450246352377287,0.019423485151818742,0.6634456969012988,0.052801046850103006,-0.3507029449500014,-0.06564399583493064,-0.8591123568228708,-0.0005149697373333972,-0.010455511245542282,0.2839063252680197,0.026729493371908362,0.004227531163353374,440456.9414728558,440406.2327221269,440914.77297559177,439986.4293193633,-0.0044711197950679325,1.5959978015687089,0.01850728829929758,20.053368596313017,-0.3506489558927503,2.934364457607129,-0.014988812703113641,-3.0750125636326e-05,-0.00018229068132122252,32.501,0.28373082188562226,0.027082864183612596,0.0042264507377941345,-0.012467520794171297,0.006619549262257303
15.060611735484605,15.060611735484605,0.0016291632606797613,0.0016291632606797613,-0.00047519863824313605,-0.00047519863824313605,3.2068955458032363e-06,3.2068955458032363e-06,nan,HOVER,0.0,0.0,0.0,-0.7363482650680742,91.42453554179565,0.16519372178964523,20.0,0.0,3.0,0.0,0.0,0.0,0.08919993277663019,0.01545816498504366,0.8265964902801375,0.18090932264795967,-0.31613950452343575,-0.06361547294905234,-0.6988066690936501,-0.26865365865337487,-0.008096985747415976,0.22478111102503573,0.10955402913717102,0.003880307633585326,440316.35378906067,440555.7503798767,440781.2735142422,440114.27676757186,-0.011294869147276038,1.5959289581862177,0.017310004689670512,20.18090932264796,-0.31613950452343575,2.9363845270509477,-0.012196477210578692,-0.004688890891030347,-0.00014131906077946273,33.0,0.22478111102503573,0.10955402913717102,0.003880307633585326,-0.012919046484042934,0.002562553214189833
15.060544733593508,15.060544733593508,0.001486821343558411,0.001486821343558411,0.00017541446804197232,0.00017541446804197232,-1.3382717035221754e-06,-1.3382717035221754e-06,nan,HOVER,0.0,0.0,0.0,-0.666970844985552,91.42453554179565,-0.0780447020128306,20.0,0.0,3.0,0.0,0.0,0.0,-0.2737094135148389,0.014506790796938347,0.8761686544626209,0.27343688452928916,-0.24365275004610595,-0.061776800950611666,-0.4601841101693461,-0.49150916967377767,-0.006952582970675861,0.1408584562806292,0.17545089288254365,0.003437191671602245,440195.76786219544,440689.0326295222,440605.2184730585,440269.79770577134,-0.016417967719343198,1.5959123535742168,0.013929890809279505,20.27343688452929,-0.24365275004610595,2.9382231990493883,-0.008031727887815409,-0.008578453314550883,-0.00012134546435638215,33.501,0.1408584562806292,0.17545089288254365,0.003437191671602245,-0.01160311587357485,-0.0016510112120213
15.060184075336432,15.060184075336432,0.0011625733205467739,0.0011625733205467739,0.0007671047484517353,0.0007671047484517353,-6.016832770316118e-06,-6.016832770316118e-06,nan,HOVER,0.0,0.0,0.0,-0.5119538933848162,91.42453554179565,-0.29821135510538566,20.0,0.0,3.0,0.0,0.0,0.0,-0.5873554974640753,0.016187791979957705,0.8113292251464004,0.31992776118172017,-0.14503470399365292,-0.060181385836399315,-0.1731458804080545,-0.6392223428916628,-0.007179745947504229,0.04499809250603517,0.21593977730810315,0.0029692102754471338,440105.41373408487,440775.3949724239,440408.2662910838,440428.5524137941,-0.01918656836840638,1.5959416925795902,0.008955596283036077,20.31992776118172,-0.14503470399365292,2.9398186141636007,-0.0030219656993848943,-0.011156534535771687,-0.00012531020624066875,34.0,0.04499809250603517,0.21593977730810315,0.0029692102754471338,-0.008803014360940149,-0.005425060786657832
15.210527377040185,15.210527348931848,0.003918426640755543,0.003918426996607908,-0.016167999760695464,-0.01616799866263749,0.0011269912769434343,0.0011269912769434343,2211.868407513591,TRAJ,-0.09769017208624037,-0.008242792556067313,0.0,-0.9107513652751258,93.39902277730826,31.47284173656808,19.971021143087246,0.6880740343387249,3.0411097218006367,-0.08295968088805046,1.396772683481199,0.08355634512324507,-0.6154608749934742,-0.3758621937606643,-23.919420771052085,0.34062169327154734,-0.6806812794988666,-0.06550328542304706,-0.006183656890493524,13.221129673821377,0.14661349054339284,-0.006337649222127331,-0.893221647921372,0.011125811638601796,445955.779128962,439576.6965705821,450970.7634060914,442801.321071632,-0.026637428676925857,1.6235604327943152,0.1318320656374231,20.311642836358793,0.007392754839858337,2.9756064363775896,-0.00010792517255274643,0.23075224364130698,0.07260222461728945,34.5,-0.08929733011017779,0.503551035559827,0.09468215676184687,-0.04681770201098249,0.5201676636300034
15.30337456668596,15.303375633309303,0.002820172260995005,0.002820170835084825,-0.014120748373318734,-0.014120753635291907,0.0007614648946950796,0.0007614648946950796,5671.0090573649895,TRAJ,-0.09725878304112279,-0.01163669163475204,0.0,1.4874876714771919,95.39759125695728,9.32754353891671,19.917610055061036,1.382504239979208,3.0827207816720126,-0.13150687436178685,1.3918219450780134,0.08355634512324507,-2.381285420635659,-0.3496798695339884,1.679690048397439,0.30959236872933005,-0.9406126931606804,-0.0585573883748709,0.9021723978518404,0.256205231919552,0.14695870053335383,-0.11538790509380542,-0.11069787905785478,0.016549373935670172,448999.74688630336,443299.5011038608,452436.26400785596,445430.1724414963,-0.015599713569729631,1.6588990008543485,0.19211246763473866,20.227202423790366,0.4418915468185276,3.0241633932971417,0.015745878763126834,0.004471624857831855,0.07260832492045258,35.0,-0.24689477945559227,1.2811240660201586,0.10010571905891524,0.0106025529149202,0.16374700348573482
15.13520060930609,15.135201101206194,0.002998143507737596,0.0029981404469521127,-0.0018825335847488978,-0.0018825329336853716,0.0008425904975234566,0.0008425904975234566,9303.546586109984,TRAJ,-0.0967035173156431,-0.015044301764176309,0.0,1.2869848058105482,97.41622786769481,-13.336907970200048,19.839180575642775,2.080974655460891,3.124749623269005,-0.18029341125667625,1.3851107295449478,0.08355634512324507,-1.445770897180934,-0.2469199334401445,21.5493225052782,0.23293321028578973,-0.7969639525619308,-0.049373822258618194,0.3435138720111151,-10.62989951594454,0.09212405731271357,-0.18026228695713847,0.6439129526279601,0.01968882618572218,441162.46694636863,441003.85209204885,444930.99166787387,443395.63774901815,-0.002771340100785786,1.6959243553369938,0.1433336731757531,20.072113785928565,1.2840107028989605,3.0753758010103867,0.005995448092868354,-0.1855267457093837,0.07165135605897288,35.501,-0.3605556982138147,2.029023682172908,0.10324517130896725,0.05203975106930573,-0.2257900942242613
15.017284285273199,15.017285960047374,0.0037628236803715484,0.0037628230052848943,0.013899804424867254,0.013899822456681707,0.0008078416461899076,0.0008078416461899076,10957.2956199323,TRAJ,-0.09603629495725066,-0.018393761499824295,0.0,-0.6325347474338728,99.41480067460284,-25.095181745065766,19.737429403038128,2.768755559359657,3.1663606831403808,-0.22829045529061867,1.3767835645152677,0.08355634512324507,0.5458058278412261,-0.18572556299250853,26.665527344889693,0.14169039769261715,-0.3763615917402703,-0.04054959932006641,-0.7555325923290014,-14.412582434657258,0.06460258448076774,-0.1703143735886997,0.9279978213981133,0.013345402910338158,434117.6748798994,441278.8343875068,437978.2002697876,443324.5651111337,-0.0015137052035891054,1.73187407440636,0.02740770111113286,19.879119800730745,2.3923939676193866,3.1258110838203144,-0.013186531342269128,-0.25154701719986966,0.07117109139022404,36.0,-0.39860482887931836,2.304781385913381,0.09690174803358323,0.05848331356073412,-0.42019066923216486
15.127312844642404,15.127313544125212,0.005377998803607571,0.005378000448293406,0.024466952045357496,0.02446696055191547,0.0007430726618132919,0.0007430726618132919,9738.21732979187,TRAJ,-0.09524306520063441,-0.021754833103560665,0.0,-1.9492640084529955,101.42140205264992,-18.679504379148554,19.611311196827543,3.454708867002521,3.2081388557020034,-0.27611682875127097,1.366751783671633,0.08355634512324507,1.249481404891771,-0.12237008759008412,14.092428638764074,0.0729428463838353,0.03523747127346777,-0.036477625229180966,-1.2369651402356812,-8.947570337831346,0.03532095790540531,-0.09715459509204544,0.6336093407974481,0.0035539280964703157,434846.06471250305,447222.7001162212,438930.9556357057,448570.5291726332,-0.012213510480321566,1.7680016368732758,-0.08005957470806581,19.682761842921504,3.497937025352618,3.172009532288038,-0.021589114429506024,-0.15616456244893834,0.0706601067458203,36.501,-0.37291710437253855,1.9960553485298982,0.08705462496614508,0.03004417149808995,-0.32048584925518303
15.20067202203129,15.200672021764825,0.0053790451357743395,0.005379045165295995,0.022228089493272388,0.022228089603074888,0.0008803672937358534,0.0008803672937358534,6615.60683333429,TRAJ,-0.09434388237005907,-0.025043447644155958,0.0,-1.0933157052727893,103.43603203372844,-1.319516516194037,19.460735712874442,4.137940852323919,3.2500841409538723,-0.3237096987181654,1.355010624022456,0.08355634512324507,-0.2774628571286797,-0.07362773727085586,-5.270913947189189,0.04825317407051699,0.19842305979886277,-0.03578917043511343,-0.4088869222933673,0.9037409503978621,0.004500076698654917,-0.0036785506343589014,0.0017418256661354548,0.0009662245316358065,437255.93614632543,448601.66044707346,441819.1101325238,450474.98888098396,-0.02392459922966018,1.8040142777507175,-0.11502471070977288,19.50898888694496,4.336363912122782,3.214294970518759,-0.007136423062365463,0.01577325516954545,0.0701222575456711,37.0,-0.3273882493525243,1.3567524496885914,0.08452256965488088,-0.013208784903512195,-0.026827127841210906
